Timestamp,Flex1,Flex2,Flex3,Flex4,Flex5,Accel X,Accel Y,Accel Z
2024-12-11 14:17:08,2173,2658,661,675,0,0.77,-8.67,-8.67
2024-12-11 14:17:08,2061,2477,666,658,1,0.95,-8.68,-8.68
2024-12-11 14:17:08,1325,1535,662,655,0,0.80,-8.64,-8.64
2024-12-11 14:17:08,511,545,666,667,5,0.72,-8.64,-8.64
2024-12-11 14:17:08,45,0,667,671,0,0.72,-8.63,-8.63
2024-12-11 14:17:08,110,70,658,671,2,0.75,-8.77,-8.77
2024-12-11 14:17:08,479,551,672,663,0,0.57,-8.46,-8.46
2024-12-11 14:17:08,1135,1374,669,668,5,0.64,-8.63,-8.63
2024-12-11 14:17:08,1888,2289,663,665,0,0.99,-8.85,-8.85
2024-12-11 14:17:08,2186,2640,669,655,0,0.80,-8.62,-8.62
2024-12-11 14:17:08,1918,2302,656,660,0,0.76,-8.43,-8.43
2024-12-11 14:17:08,899,1013,660,659,1,0.92,-8.68,-8.68
2024-12-11 14:17:08,257,219,671,660,0,0.66,-8.57,-8.57
2024-12-11 14:17:08,23,0,652,668,3,0.85,-8.61,-8.61
2024-12-11 14:17:08,194,197,670,669,1,0.73,-8.53,-8.53
2024-12-11 14:17:08,767,912,669,662,0,0.64,-8.52,-8.52
2024-12-11 14:17:08,1439,1755,667,669,4,0.72,-8.62,-8.62
2024-12-11 14:17:08,2214,2679,667,659,2,0.63,-8.61,-8.61
2024-12-11 14:17:08,2145,2587,672,666,3,0.59,-8.74,-8.74
2024-12-11 14:17:08,1465,1727,673,667,0,0.48,-8.84,-8.84
2024-12-11 14:17:08,576,600,660,669,1,0.57,-8.75,-8.75
2024-12-11 14:17:08,53,0,669,661,5,0.60,-8.66,-8.66
2024-12-11 14:17:08,86,49,663,666,7,0.71,-8.85,-8.85
2024-12-11 14:17:08,468,538,671,672,0,0.52,-8.82,-8.82
2024-12-11 14:17:08,1146,1390,673,676,0,0.34,-8.77,-8.77
2024-12-11 14:17:08,1914,2320,667,670,3,0.30,-8.81,-8.81
2024-12-11 14:17:09,2171,2635,672,671,0,0.47,-9.11,-9.11
2024-12-11 14:17:09,1899,2274,666,659,1,-0.05,-9.01,-9.01
2024-12-11 14:17:09,853,946,667,661,0,0.27,-9.01,-9.01
2024-12-11 14:17:09,208,161,679,671,5,0.16,-8.90,-8.90
2024-12-11 14:17:09,35,0,669,663,5,-0.07,-9.04,-9.04
2024-12-11 14:17:09,259,273,667,674,2,-0.07,-9.00,-9.00
2024-12-11 14:17:09,873,1052,657,675,9,-0.02,-8.89,-8.89
2024-12-11 14:17:09,1559,1899,659,668,11,-0.22,-9.14,-9.14
2024-12-11 14:17:09,2154,2608,656,655,2,-0.26,-9.10,-9.10
2024-12-11 14:17:10,2000,2398,661,658,6,0.00,-9.20,-9.20
2024-12-11 14:17:10,1131,1297,662,663,0,0.20,-9.26,-9.26
2024-12-11 14:17:10,382,368,654,656,2,0.09,-8.99,-8.99
2024-12-11 14:17:10,33,0,656,647,0,0.07,-9.04,-9.04
2024-12-11 14:17:10,170,158,660,671,0,-0.05,-9.08,-9.08
2024-12-11 14:17:10,722,854,663,666,3,0.02,-9.12,-9.12
2024-12-11 14:17:10,1406,1709,663,663,1,0.10,-9.10,-9.10
2024-12-11 14:17:10,2192,2653,667,663,5,0.24,-9.12,-9.12
2024-12-11 14:17:10,2099,2531,658,659,0,0.05,-9.04,-9.04
2024-12-11 14:17:10,1331,1570,661,650,1,0.16,-8.93,-8.93
2024-12-11 14:17:11,480,495,656,656,5,0.05,-9.14,-9.14
2024-12-11 14:17:11,22,0,665,662,8,-0.01,-9.06,-9.06
2024-12-11 14:17:11,118,102,659,659,1,0.08,-9.11,-9.11
2024-12-11 14:17:11,626,747,657,662,5,0.22,-9.07,-9.07
2024-12-11 14:17:11,1341,1623,669,657,3,0.20,-9.11,-9.11
2024-12-11 14:17:11,2165,2642,655,664,0,0.13,-8.94,-8.94
2024-12-11 14:17:11,2158,2599,666,669,0,0.07,-8.92,-8.92
2024-12-11 14:17:11,1447,1695,658,658,0,0.07,-9.00,-9.00
2024-12-11 14:17:11,496,533,656,661,6,-0.06,-8.89,-8.89
2024-12-11 14:17:11,23,0,667,661,1,0.03,-8.94,-8.94
2024-12-11 14:17:12,118,95,671,659,5,0.12,-8.96,-8.96
2024-12-11 14:17:12,630,742,665,672,3,0.32,-8.92,-8.92
2024-12-11 14:17:12,1333,1625,663,658,0,0.35,-9.03,-9.03
2024-12-11 14:17:12,2160,2626,666,667,1,0.22,-9.06,-9.06
2024-12-11 14:17:12,2145,2559,656,663,1,0.14,-8.99,-8.99
2024-12-11 14:17:12,1395,1631,669,657,3,0.34,-9.03,-9.03
2024-12-11 14:17:12,491,499,657,661,0,0.22,-8.91,-8.91
2024-12-11 14:17:12,23,0,659,656,1,0.04,-9.01,-9.01
2024-12-11 14:17:12,134,119,665,663,0,0.29,-9.13,-9.13
2024-12-11 14:17:13,678,813,666,666,3,0.24,-9.04,-9.04
2024-12-11 14:17:13,1392,1694,671,667,3,0.23,-9.04,-9.04
2024-12-11 14:17:13,2209,2679,668,668,7,0.14,-8.94,-8.94
2024-12-11 14:17:13,2107,2535,657,666,2,0.17,-8.94,-8.94
2024-12-11 14:17:13,1257,1467,659,660,0,0.04,-9.01,-9.01
2024-12-11 14:17:13,418,418,649,663,2,0.18,-8.97,-8.97
2024-12-11 14:17:13,26,0,662,669,0,0.19,-9.00,-9.00
2024-12-11 14:17:13,171,166,663,658,4,0.13,-8.99,-8.99
2024-12-11 14:17:13,767,912,671,663,0,0.19,-9.00,-9.00
2024-12-11 14:17:13,1505,1838,655,665,5,0.16,-8.96,-8.96
2024-12-11 14:17:14,2227,2707,670,662,1,0.07,-8.98,-8.98
2024-12-11 14:17:14,2062,2469,659,667,0,0.21,-9.00,-9.00
2024-12-11 14:17:14,1103,1265,659,656,3,0.23,-9.07,-9.07
2024-12-11 14:17:14,304,287,662,655,0,0.25,-9.07,-9.07
2024-12-11 14:17:14,10,0,658,663,0,0.15,-8.96,-8.96
2024-12-11 14:17:14,232,242,667,665,2,0.08,-8.88,-8.88
2024-12-11 14:17:14,901,1077,667,655,0,0.10,-8.97,-8.97
2024-12-11 14:17:14,1681,2046,667,665,2,-0.04,-9.06,-9.06
2024-12-11 14:17:14,2235,2705,659,645,1,0.02,-9.01,-9.01
2024-12-11 14:17:14,1955,2349,656,657,0,-0.01,-9.06,-9.06
2024-12-11 14:17:15,875,987,655,664,6,-0.07,-8.92,-8.92
2024-12-11 14:17:15,178,131,659,660,0,-0.25,-9.12,-9.12
2024-12-11 14:17:15,51,3,656,659,0,-0.16,-9.11,-9.11
2024-12-11 14:17:15,334,368,657,663,2,0.03,-9.05,-9.05
2024-12-11 14:17:15,1097,1328,657,658,2,0.02,-9.09,-9.09
2024-12-11 14:17:15,1926,2343,667,656,0,0.01,-9.03,-9.03
2024-12-11 14:17:15,2197,2657,663,656,2,-0.02,-9.04,-9.04
2024-12-11 14:17:15,1753,2092,663,654,2,-0.12,-9.03,-9.03
2024-12-11 14:17:15,640,694,658,657,0,-0.02,-9.05,-9.05
2024-12-11 14:17:16,48,0,659,656,0,-0.01,-9.06,-9.06
2024-12-11 14:17:16,93,57,645,659,0,-0.10,-9.02,-9.02
2024-12-11 14:17:16,551,643,666,658,1,-0.03,-9.04,-9.04
2024-12-11 14:17:16,1301,1583,665,667,0,0.00,-8.97,-8.97
2024-12-11 14:17:16,2158,2627,661,668,0,0.01,-8.90,-8.90
2024-12-11 14:17:16,2147,2589,663,658,0,-0.01,-8.99,-8.99
2024-12-11 14:17:16,1326,1535,661,660,0,0.10,-8.99,-8.99
2024-12-11 14:17:16,422,432,672,662,7,0.09,-8.95,-8.95
2024-12-11 14:17:16,16,0,659,672,0,0.17,-8.89,-8.89
2024-12-11 14:17:16,194,188,656,663,3,0.09,-8.94,-8.94
2024-12-11 14:17:17,843,1021,659,660,10,0.12,-8.99,-8.99
2024-12-11 14:17:17,1648,2011,661,676,0,0.19,-8.97,-8.97
2024-12-11 14:17:17,2223,2681,661,645,10,0.05,-9.01,-9.01
2024-12-11 14:17:17,1942,2329,668,659,4,0.07,-9.00,-9.00
2024-12-11 14:17:17,802,880,663,661,0,-0.02,-8.85,-8.85
2024-12-11 14:17:17,115,50,666,656,0,0.12,-8.89,-8.89
2024-12-11 14:17:17,64,31,673,662,3,0.07,-8.90,-8.90
2024-12-11 14:17:17,478,552,641,654,0,0.09,-8.96,-8.96
2024-12-11 14:17:17,1247,1515,668,656,5,0.14,-9.04,-9.04
2024-12-11 14:17:17,2151,2627,663,662,2,0.09,-8.93,-8.93
2024-12-11 14:17:18,2194,2650,655,667,1,0.17,-8.99,-8.99
2024-12-11 14:17:18,1381,1626,662,654,0,0.08,-8.94,-8.94
2024-12-11 14:17:18,432,437,660,656,0,0.06,-8.98,-8.98
2024-12-11 14:17:18,13,0,661,669,0,0.12,-9.04,-9.04
2024-12-11 14:17:18,192,189,661,661,7,0.15,-9.24,-9.24
2024-12-11 14:17:18,880,1056,651,663,0,0.14,-8.91,-8.91
2024-12-11 14:17:18,1763,2143,666,665,0,-0.00,-9.18,-9.18
2024-12-11 14:17:18,2293,2795,665,658,0,0.04,-9.30,-9.30
2024-12-11 14:17:18,1988,2379,656,651,0,0.33,-9.16,-9.16
2024-12-11 14:17:18,715,813,656,658,0,-0.06,-8.70,-8.70
2024-12-11 14:17:19,46,0,667,656,3,-0.28,-9.01,-9.01
2024-12-11 14:17:19,64,47,655,647,0,-0.91,-8.73,-8.73
2024-12-11 14:17:19,578,699,666,656,0,-0.44,-8.78,-8.78
2024-12-11 14:17:19,1403,1719,656,655,7,-0.08,-9.06,-9.06
2024-12-11 14:17:19,2321,2838,654,656,0,-0.35,-9.00,-9.00
2024-12-11 14:17:19,2163,2624,657,657,0,-0.43,-8.90,-8.90
2024-12-11 14:17:19,1073,1243,656,659,0,-0.39,-8.83,-8.83
2024-12-11 14:17:19,206,170,658,658,3,-0.16,-9.10,-9.10
2024-12-11 14:17:19,16,0,665,672,0,-0.29,-9.22,-9.22
2024-12-11 14:17:20,397,464,661,663,1,-0.34,-9.12,-9.12
2024-12-11 14:17:20,1205,1486,677,658,0,-0.24,-9.00,-9.00
2024-12-11 14:17:20,2186,2670,656,661,2,-0.26,-8.78,-8.78
2024-12-11 14:17:20,2252,2738,656,661,0,-0.34,-9.03,-9.03
2024-12-11 14:17:20,1374,1623,660,651,1,-0.19,-9.14,-9.14
2024-12-11 14:17:20,402,395,663,654,0,-0.28,-8.93,-8.93
2024-12-11 14:17:20,3,0,659,651,7,-0.00,-8.86,-8.86
2024-12-11 14:17:20,229,254,656,658,3,-0.08,-8.88,-8.88
2024-12-11 14:17:20,1007,1217,656,659,0,0.05,-9.15,-9.15
2024-12-11 14:17:20,1914,2329,661,658,12,0.02,-9.12,-9.12
2024-12-11 14:17:21,2215,2682,659,656,1,0.02,-8.88,-8.88
2024-12-11 14:17:21,1641,1932,651,653,2,0.08,-8.98,-8.98
2024-12-11 14:17:21,546,576,657,656,2,0.11,-9.09,-9.09
2024-12-11 14:17:21,14,0,656,656,0,0.05,-8.93,-8.93
2024-12-11 14:17:21,158,154,653,646,0,-0.03,-8.94,-8.94
2024-12-11 14:17:21,837,1014,663,663,0,0.07,-9.09,-9.09
2024-12-11 14:17:21,1733,2113,657,656,2,0.11,-9.07,-9.07
2024-12-11 14:17:21,2239,2725,630,658,0,0.06,-9.02,-9.02
2024-12-11 14:17:21,1823,2186,645,656,0,0.17,-8.86,-8.86
2024-12-11 14:17:21,609,659,658,656,0,-0.06,-8.96,-8.96
2024-12-11 14:17:22,22,0,655,657,1,-0.03,-8.90,-8.90
2024-12-11 14:17:22,119,112,659,642,0,0.24,-9.01,-9.01
2024-12-11 14:17:22,753,895,656,662,2,0.00,-9.18,-9.18
2024-12-11 14:17:22,1591,1933,662,658,3,-0.03,-8.86,-8.86
2024-12-11 14:17:22,2208,2683,656,663,3,-0.12,-8.85,-8.85
2024-12-11 14:17:22,1901,2262,656,657,0,0.10,-8.88,-8.88
2024-12-11 14:17:22,663,737,656,655,0,0.06,-9.04,-9.04
2024-12-11 14:17:22,55,0,657,656,0,0.10,-8.95,-8.95
2024-12-11 14:17:22,112,77,654,660,0,0.19,-8.90,-8.90
2024-12-11 14:17:23,684,809,666,654,5,0.06,-8.90,-8.90
2024-12-11 14:17:23,1488,1812,651,656,1,0.09,-8.95,-8.95
2024-12-11 14:17:23,2204,2663,663,653,10,0.04,-8.96,-8.96
2024-12-11 14:17:23,1936,2320,656,654,5,0.09,-9.09,-9.09
2024-12-11 14:17:23,736,801,654,656,0,0.09,-8.94,-8.94
2024-12-11 14:17:23,65,0,650,657,1,0.04,-8.77,-8.77
2024-12-11 14:17:23,90,55,657,666,1,0.00,-8.99,-8.99
2024-12-11 14:17:23,638,752,667,658,2,0.01,-8.98,-8.98
2024-12-11 14:17:23,1447,1765,656,662,3,0.03,-8.95,-8.95
2024-12-11 14:17:23,2239,2721,656,656,0,0.11,-8.98,-8.98
2024-12-11 14:17:24,1981,2386,655,651,1,0.10,-9.04,-9.04
2024-12-11 14:17:24,785,869,656,656,0,0.16,-8.91,-8.91
2024-12-11 14:17:24,90,28,654,656,6,0.02,-8.97,-8.97
2024-12-11 14:17:24,96,62,646,661,13,-0.08,-9.01,-9.01
